Folder: Cap2SSA

Note: README.md
This GitHub repository contains the data and sample code for "Decoding intrinsic features of carbons from their capacitive performance". 

CaptoSSA-database-withDOI.csv file contains the data with file DOIs;

CaptoSSA-database-noDOI.csv file is the database directly used for machine learning analysis;

Cap2SSA_ML.py is the code for preliminary screening of various algorithm effects;

Cap2SSA_optimized_GBR.py is the code for finding optimized parameters for GBR;

Cap2SSA_SearchPara_GBR.py is the code for parsing the database using the optimized parameters for GBR.

File: CaptoSSA-database-withDOI.csv
DOI,Year,Materials Name,Electrolyte,E-type,Voltage (V),Specific surface area (m2/g),IDIG,N-doped (at%),O-doped (at%),Current density (A/g),Capacitance (F/g)
10.1186/s11671-017-2151-4,2017,cgacf,KOH,2,1,1435,0.87,0,0,0.1,218
10.1186/s11671-017-2151-4,2017,cgacf,KOH,2,1,1435,0.87,0,0,1,205
10.1186/s11671-017-2151-4,2017,cgacf,KOH,2,1,1435,0.87,0,0,5,201
10.1186/s11671-017-2151-4,2017,cgacf,KOH,2,1,1435,0.87,0,0,20,192
10.1186/s11671-017-2151-4,2017,AC,KOH,2,1,1282,1,0,0,0.5,164
10.1186/s11671-017-2151-4,2017,AC,KOH,2,1,1282,1,0,0,2,150.5
10.1186/s11671-017-2151-4,2017,AC,KOH,2,1,1282,1,0,0,10,134.7
10.1126/science.1200770,2011,,TEABF4/AN,2,2.7,3100,1.19,0,0,0.8,150
10.1126/science.1200770,2011,,BMIMBF4,2,3.5,3100,1.19,0,0,2.8,166
10.1126/science.1200770,2011,,EMITFSI,2,3.5,3100,1.19,0,0,0.7,200
10.1039/d0ta09985f,2021,CPIL-2,H2SO4,3,1,2423,0.79,4.21,9.49,0.5,304
10.1039/d0ta09985f,2021,CPIL-4,H2SO4,3,1,2157,0.82,7.57,8.06,0.5,321
10.1039/d0ta09985f,2021,CPIL-6,H2SO4,3,1,1049,0.86,9.05,7.81,0.5,235
10.1039/d0ta09985f,2021,CPIL-2,EMIMBF4,2,3.5,2423,0.79,4.21,9.49,0.2,141
10.1039/d0ta09985f,2021,CPIL-4,EMIMBF4,2,3.5,2157,0.82,7.57,8.06,0.2,158
10.1039/d0ta09985f,2021,CPIL-6,EMIMBF4,2,3.5,1049,0.86,9.05,7.81,0.2,98
10.1039/c8ta10406a,2019,HPC-2,KOH,3,1,2379,0.88,6.9,10.17,1,402
10.1039/c8ta10406a,2019,HPC-3,KOH,3,1,1921,0.88,6.51,10.75,1,311
10.1039/c8ta10406a,2019,HPC-5,KOH,3,1,1782,0.88,5.1,10.51,1,280
10.1039/c8ta10158b,2019,PCN900,KOH,3,0.8,1527,0.84,4.99,8.78,1,241
10.1039/c8ta10158b,2019,PCN800,KOH,3,0.8,2218,0.87,6.15,12.66,1,267
10.1039/c8ta10158b,2019,PCN700,KOH,3,0.8,2660,0.89,10.95,10.37,0.5,376
10.1039/c8ta10158b,2019,PCN700,KOH,2,0.8,2660,0.89,10.95,10.37,72.5,0.2
10.1039/c8ta10158b,2019,PCN700,KOH,2,0.8,2660,0.89,10.95,10.37,67.5,1
10.1039/c8ta10158b,2019,PCN700,KOH,2,0.8,2660,0.89,10.95,10.37,48.8,5
10.1039/c8qm00284c,2018,C-B-800,KOH,2,1,191.2,0.91,0,0,0.5,21
10.1039/c8qm00284c,2018,C-B-1000,KOH,2,1,527.5,1.11,0,0,0.5,127
10.1039/c8qm00284c,2018,C-S-900,KOH,2,1,1356.3,1.09,0,0,0.5,264
10.1039/c8qm00284c,2018,C-B-800,KOH,2,1,191.2,0.91,0,0,5,16.3
10.1039/c8qm00284c,2018,C-B-1000,KOH,2,1,527.5,1.11,0,0,5,109.6
10.1039/c8qm00284c,2018,C-S-900,KOH,2,1,1356.3,1.09,0,0,5,234.8
10.1039/c8qm00284c,2018,C-B-800,KOH,2,1,191.2,0.91,0,0,10,14
10.1039/c8qm00284c,2018,C-B-1000,KOH,2,1,527.5,1.11,0,0,10,106
10.1039/c8qm00284c,2018,C-S-900,KOH,2,1,1356.3,1.09,0,0,10,232.5
10.1039/c8qm00284c,2018,C-B-800,KOH,2,1,191.2,0.91,0,0,20,11.3
10.1039/c8qm00284c,2018,C-B-1000,KOH,2,1,527.5,1.11,0,0,20,100
10.1039/c8qm00284c,2018,C-S-900,KOH,2,1,1356.3,1.09,0,0,20,228.6
10.1039/c8nr00207j,2018,PB-5,KOH,3,1,675,0.8,8.6,13.8,0.5,105
10.1039/c8nr00207j,2018,PB-15,KOH,3,1,862,0.77,9.1,11.7,1,182
10.1039/c8nr00207j,2018,PB-15,KOH,3,1,862,0.77,9.1,11.7,3,151
10.1039/c8nr00207j,2018,PB-15,KOH,3,1,862,0.77,9.1,11.7,5,136
10.1039/c8nr00207j,2018,PB-15,KOH,3,1,862,0.77,9.1,11.7,15,123
10.1039/c8nr00207j,2018,PB-15,KOH,3,1,862,0.77,9.1,11.7,30,117
10.1039/c7ta05710e,2017,N-PC,KOH,2,1,665,1.01,5.82,11.8,1,175
10.1039/c7ta05710e,2017,N-PC,KOH,2,1,665,1.01,5.82,11.8,5,162
10.1039/c7ta05710e,2017,N-PC,KOH,2,1,665,1.01,5.82,11.8,10,125
10.1039/c7ta05710e,2017,N-PC,KOH,2,1,665,1.01,5.82,11.8,20,92
10.1039/c7ta05710e,2017,N-PC,KOH,2,1,665,1.01,5.82,11.8,50,68
10.1039/c7ta05710e,2017,N-PC,KOH,2,1,665,1.01,5.82,11.8,100,55
10.1039/c7ta05710e,2017,N-GPC,KOH,2,1,498.5,0.71,4.11,15.93,200,117
10.1039/c7ra07984b,2017,NC-800,KOH,3,1,1803,0.98,6.5,15.8,0.5,285
10.1039/c7ra07984b,2017,C-800,KOH,3,1,1438,0.91,0.6,11.9,0.5,248
10.1039/c7ra07984b,2017,NC-800,KOH,3,1,1803,0.98,6.5,15.8,1,270
10.1039/c7ra07984b,2017,C-800,KOH,3,1,1438,0.91,0.6,11.9,1,222
10.1039/c7ra07984b,2017,NC-800,KOH,3,1,1803,0.98,6.5,15.8,2,264
10.1039/c7ra07984b,2017,C-800,KOH,3,1,1438,0.91,0.6,11.9,2,213
10.1039/c7ra07984b,2017,NC-800,KOH,3,1,1803,0.98,6.5,15.8,5,245
10.1039/c7ra07984b,2017,C-800,KOH,3,1,1438,0.91,0.6,11.9,5,193
10.1039/c7ra07984b,2017,NC-800,KOH,3,1,1803,0.98,6.5,15.8,8,227
10.1039/c7ra07984b,2017,C-800,KOH,3,1,1438,0.91,0.6,11.9,8,182
10.1039/c7ra07984b,2017,NC-800,KOH,3,1,1803,0.98,6.5,15.8,10,226
10.1039/c7ra07984b,2017,C-800,KOH,3,1,1438,0.91,0.6,11.9,10,166
10.1039/c7ra07984b,2017,NC-800,KOH,3,1,1803,0.98,6.5,15.8,15,224
10.1039/c7ra07984b,2017,C-800,KOH,3,1,1438,0.91,0.6,11.9,15,153
10.1039/c7ra07984b,2017,NC-900,KOH,3,1,2695,1.02,3.4,17.5,20,138
10.1039/c7ra07984b,2017,NC-800,KOH,2,1,1803,0.98,6.5,15.8,0.5,156
10.1039/c7ra07984b,2017,NC-800,KOH,2,1,1803,0.98,6.5,15.8,5,130
10.1039/c7ra07984b,2017,NC-800,KOH,2,1,1803,0.98,6.5,15.8,15,95
10.1039/c7ra07984b,2017,C-800,KOH,2,1,1438,0.91,0.6,11.9,1,124
10.1039/c7ra07984b,2017,C-800,KOH,2,1,1438,0.91,0.6,11.9,15,80
10.1039/c7ra07984b,2017,NC-800,H2SO4,2,1,1803,0.98,6.5,15.8,1,169
10.1039/c7ra07984b,2017,NC-800,H2SO4,2,1,1803,0.98,6.5,15.8,10,117
10.1039/c7ra07984b,2017,C-800,H2SO4,2,1,1438,0.91,0.6,11.9,0.5,132
10.1039/c7ra07984b,2017,C-800,H2SO4,2,1,1438,0.91,0.6,11.9,5,101
10.1039/c7nj01127j,2017,CK-700,H2SO4,3,1,847.9,0.92,1.45,25.07,0.5,220
10.1039/c7nj01127j,2017,CK-900,H2SO4,3,1,878.2,0.78,1.02,15.88,0.5,250
10.1039/c7nj01127j,2017,CK-700,H2SO4,3,1,847.9,0.92,1.45,25.07,1,202
10.1039/c7nj01127j,2017,CK-900,H2SO4,3,1,878.2,0.78,1.02,15.88,1,220
10.1039/c7nj01127j,2017,CK-700,H2SO4,3,1,847.9,0.92,1.45,25.07,2,186
10.1039/c7nj01127j,2017,CK-900,H2SO4,3,1,878.2,0.78,1.02,15.88,2,197
10.1039/c7nj01127j,2017,CK-700,H2SO4,3,1,847.9,0.92,1.45,25.07,5,174
10.1039/c7nj01127j,2017,CK-900,H2SO4,3,1,878.2,0.78,1.02,15.88,5,180
10.1039/c7nj01127j,2017,CK-700,H2SO4,3,1,847.9,0.92,1.45,25.07,10,167
10.1039/c7nj01127j,2017,CK-900,H2SO4,3,1,878.2,0.78,1.02,15.88,10,172
10.1039/c7nj01127j,2017,CK-700,H2SO4,3,1,847.9,0.92,1.45,25.07,20,165
10.1039/c7nj01127j,2017,CK-900,H2SO4,3,1,878.2,0.78,1.02,15.88,20,172
10.1039/c7gc00506g,2017,LHC-3K,EMITFSI,2,2.5,1660,0.94,0.7,4.7,1,218
10.1039/c7gc00506g,2017,LHC-1K,EMITFSI,2,2.5,1290,0.88,0.6,3.3,1,130
10.1039/c7gc00506g,2017,LHC-2K,EMITFSI,2,2.5,1355,0.9,0.7,4.4,2,146
10.1039/c7gc00506g,2017,LHC-3K,EMITFSI,2,2.5,1660,0.94,0.7,4.7,5,205
10.1039/c7gc00506g,2017,LHC-1K,EMITFSI,2,2.5,1290,0.88,0.6,3.3,5,118
10.1039/c7gc00506g,2017,LHC-2K,EMITFSI,2,2.5,1355,0.9,0.7,4.4,10,128
10.1039/c7gc00506g,2017,LHC-3K,EMITFSI,2,2.5,1660,0.94,0.7,4.7,15,195
10.1039/c7gc00506g,2017,LHC-1K,EMITFSI,2,2.5,1290,0.88,0.6,3.3,15,113
10.1039/c7gc00506g,2017,LHC-2K,EMITFSI,2,2.5,1355,0.9,0.7,4.4,20,118
10.1039/c7gc00506g,2017,LHC-3K,EMITFSI,2,2.5,1660,0.94,0.7,4.7,25,185
10.1039/c7gc00506g,2017,LHC-1K,EMITFSI,2,2.5,1290,0.88,0.6,3.3,25,91
10.1039/c7gc00506g,2017,LHC-2K,EMITFSI,2,2.5,1355,0.9,0.7,4.4,30,107
10.1039/c7gc00506g,2017,LHC-3K,EMITFSI,2,2.5,1660,0.94,0.7,4.7,35,174
10.1039/c7gc00506g,2017,LHC-1K,EMITFSI,2,2.5,1290,0.88,0.6,3.3,35,80
10.1039/c7gc00506g,2017,LHC-2K,EMITFSI,2,2.5,1355,0.9,0.7,4.4,40,98
10.1039/c7gc00506g,2017,LHC-3K,EMITFSI,2,2.5,1660,0.94,0.7,4.7,45,163
10.1039/c7gc00506g,2017,LHC-1K,EMITFSI,2,2.5,1290,0.88,0.6,3.3,45,71
10.1039/c7gc00506g,2017,LHC-2K,EMITFSI,2,2.5,1355,0.9,0.7,4.4,50,88
10.1039/c7gc00506g,2017,LHC-3K,KOH,3,1,1660,0.94,0.7,4.7,0.1,420
10.1039/c7gc00506g,2017,LHC-1K,KOH,3,1,1290,0.88,0.6,3.3,0.1,289
10.1039/c7gc00506g,2017,LHC-2K,KOH,3,1,1355,0.9,0.7,4.4,1,288
10.1039/c7gc00506g,2017,LHC-3K,KOH,3,1,1660,0.94,0.7,4.7,2,327
10.1039/c7gc00506g,2017,LHC-1K,KOH,3,1,1290,0.88,0.6,3.3,2,220
10.1039/c7gc00506g,2017,LHC-2K,KOH,3,1,1355,0.9,0.7,4.4,5,258
10.1039/c7gc00506g,2017,LHC-3K,KOH,3,1,1660,0.94,0.7,4.7,10,302
10.1039/c7gc00506g,2017,LHC-1K,KOH,3,1,1290,0.88,0.6,3.3,10,207
10.1039/c7gc00506g,2017,LHC-2K,KOH,3,1,1355,0.9,0.7,4.4,20,238
10.1039/c7gc00506g,2017,LHC-3K,KOH,3,1,1660,0.94,0.7,4.7,30,300
10.1039/c7gc00506g,2017,LHC-1K,KOH,3,1,1290,0.88,0.6,3.3,30,203
10.1039/c7gc00506g,2017,LHC-2K,KOH,3,1,1355,0.9,0.7,4.4,40,231
10.1039/c7gc00506g,2017,LHC-3K,KOH,3,1,1660,0.94,0.7,4.7,50,289
10.1039/c7gc00506g,2017,LHC-1K,KOH,3,1,1290,0.88,0.6,3.3,50,195
10.1039/c7gc00506g,2017,LHC-3K,KOH,2,1,1660,0.94,0.7,4.7,0.5,233
10.1039/c7gc00506g,2017,LHC-3K,KOH,2,1,1660,0.94,0.7,4.7,1,189
10.1039/c7gc00506g,2017,LHC-1K,KOH,2,1,1290,0.88,0.6,3.3,1,222
10.1039/c7gc00506g,2017,LHC-2K,KOH,2,1,1355,0.9,0.7,4.4,2,201
10.1039/c7gc00506g,2017,LHC-3K,KOH,2,1,1660,0.94,0.7,4.7,5,177
10.1039/c7gc00506g,2017,LHC-1K,KOH,2,1,1290,0.88,0.6,3.3,5,215
10.1039/c7gc00506g,2017,LHC-2K,KOH,2,1,1355,0.9,0.7,4.4,10,183
10.1039/c7gc00506g,2017,LHC-3K,KOH,2,1,1660,0.94,0.7,4.7,15,169
10.1039/c7gc00506g,2017,LHC-1K,KOH,2,1,1290,0.88,0.6,3.3,15,207
10.1039/c7gc00506g,2017,LHC-2K,KOH,2,1,1355,0.9,0.7,4.4,20,179
10.1039/c7gc00506g,2017,LHC-3K,KOH,2,1,1660,0.94,0.7,4.7,25,169
10.1039/c7gc00506g,2017,LHC-1K,KOH,2,1,1290,0.88,0.6,3.3,25,205
10.1039/c7gc00506g,2017,LHC-2K,KOH,2,1,1355,0.9,0.7,4.4,30,174
10.1039/c6ta07927j,2017,CHPCs,pure emimbf4,2,4,2855.7,1.74,0.51,5.07,0.5,344.1
10.1039/c6ta07927j,2017,HPCs,pure emimbf4,2,4,1921.7,1.905,0.93,6.4,1,178.7
10.1039/c6ta07927j,2017,CHPCs,pure emimbf4,2,4,2855.7,1.74,0.51,5.07,1,267
10.1039/c6ta07927j,2017,HPCs,pure emimbf4,2,4,1921.7,1.905,0.93,6.4,2,167.9
10.1039/c6ta07927j,2017,CHPCs,pure emimbf4,2,4,2855.7,1.74,0.51,5.07,2,228.6
10.1039/c6ta07927j,2017,HPCs,pure emimbf4,2,4,1921.7,1.905,0.93,6.4,3,131.1
10.1039/c6ta07927j,2017,CHPCs,pure emimbf4,2,4,2855.7,1.74,0.51,5.07,3,218.6
10.1039/c6ta07927j,2017,HPCs,pure emimbf4,2,4,1921.7,1.905,0.93,6.4,4,102.9
10.1039/c6ta07927j,2017,CHPCs,pure emimbf4,2,4,2855.7,1.74,0.51,5.07,4,209.4
10.1039/c6ta07927j,2017,HPCs,pure emimbf4,2,4,1921.7,1.905,0.93,6.4,5,76.3
10.1039/c6ta07927j,2017,CHPCs,pure emimbf4,2,4,2855.7,1.74,0.51,5.07,5,199.4
10.1039/c6ta07927j,2017,HPCs,pure emimbf4,2,4,1921.7,1.905,0.93,6.4,6,61.6
10.1039/c6ta07927j,2017,HPCs,pure emimbf4,2,4,1921.7,1.905,0.93,6.4,7,57.1
10.1039/c6ta07927j,2017,CHPCs,pure emimbf4,2,4,2855.7,1.74,0.51,5.07,7,185.6
10.1039/c6ta07927j,2017,HPCs,pure emimbf4,2,4,1921.7,1.905,0.93,6.4,8,55
10.1039/c6ta07927j,2017,CHPCs,pure emimbf4,2,4,2855.7,1.74,0.51,5.07,8,172.5
10.1039/c6ta07927j,2017,HPCs,pure emimbf4,2,4,1921.7,1.905,0.93,6.4,9,52.8
10.1039/c6ta07927j,2017,CHPCs,pure emimbf4,2,4,2855.7,1.74,0.51,5.07,9,156.1
10.1039/c6ta07927j,2017,HPCs,pure emimbf4,2,4,1921.7,1.905,0.93,6.4,10,50.7
10.1039/c6ta06337c,2016,AC-550,KOH,3,0.8,1591,0.93,5.27,21,0.5,350
10.1039/c6ta06337c,2016,AC-650,KOH,3,0.8,3047,0.94,2.28,10,0.5,330
10.1039/c6ta06337c,2016,AC-750,KOH,3,0.8,3068,0.98,1.67,7,0.5,255
10.1039/c6ta06337c,2016,AC-550,KOH,3,0.8,1591,0.93,5.27,21,1,348
10.1039/c6ta06337c,2016,AC-650,KOH,3,0.8,3047,0.94,2.28,10,1,328
10.1039/c6ta06337c,2016,AC-750,KOH,3,0.8,3068,0.98,1.67,7,1,247
10.1039/c6ta06337c,2016,AC-550,KOH,3,0.8,1591,0.93,5.27,21,2,344
10.1039/c6ta06337c,2016,AC-650,KOH,3,0.8,3047,0.94,2.28,10,2,317
10.1039/c6ta06337c,2016,AC-750,KOH,3,0.8,3068,0.98,1.67,7,2,242
10.1039/c6ta06337c,2016,AC-550,KOH,3,0.8,1591,0.93,5.27,21,4,338
10.1039/c6ta06337c,2016,AC-650,KOH,3,0.8,3047,0.94,2.28,10,4,314
10.1039/c6ta06337c,2016,AC-750,KOH,3,0.8,3068,0.98,1.67,7,4,241
10.1039/c6ta06337c,2016,AC-550,KOH,3,0.8,1591,0.93,5.27,21,6,329
10.1039/c6ta06337c,2016,AC-650,KOH,3,0.8,3047,0.94,2.28,10,6,302
10.1039/c6ta06337c,2016,AC-750,KOH,3,0.8,3068,0.98,1.67,7,6,237
10.1039/c6ta06337c,2016,AC-550,KOH,3,0.8,1591,0.93,5.27,21,8,328
10.1039/c6ta06337c,2016,AC-650,KOH,3,0.8,3047,0.94,2.28,10,8,297
10.1039/c6ta06337c,2016,AC-750,KOH,3,0.8,3068,0.98,1.67,7,8,237
10.1039/c6ta06337c,2016,AC-550,KOH,3,0.8,1591,0.93,5.27,21,10,327
10.1039/c6ta06337c,2016,AC-650,KOH,3,0.8,3047,0.94,2.28,10,10,291
10.1039/c6ta06337c,2016,AC-750,KOH,3,0.8,3068,0.98,1.67,7,10,234
10.1039/c6ta06337c,2016,AC-550,KOH,3,0.8,1591,0.93,5.27,21,15,319
10.1039/c6ta06337c,2016,AC-650,KOH,3,0.8,3047,0.94,2.28,10,15,275
10.1039/c6ta06337c,2016,AC-750,KOH,3,0.8,3068,0.98,1.67,7,15,229
10.1039/c6ta06337c,2016,AC-550,KOH,3,0.8,1591,0.93,5.27,21,20,311
10.1039/c6ta06337c,2016,AC-650,KOH,3,0.8,3047,0.94,2.28,10,20,267
10.1039/c6ta06337c,2016,AC-750,KOH,3,0.8,3068,0.98,1.67,7,20,225
10.1039/c6ta06337c,2016,AC-550,KOH,3,0.8,1591,0.93,5.27,21,25,302
10.1039/c6ta06337c,2016,AC-650,KOH,3,0.8,3047,0.94,2.28,10,25,256
10.1039/c6ta06337c,2016,AC-750,KOH,3,0.8,3068,0.98,1.67,7,25,217
10.1039/c6ta06337c,2016,AC-550,KOH,3,0.8,1591,0.93,5.27,21,30,299
10.1039/c6ta06337c,2016,AC-650,KOH,3,0.8,3047,0.94,2.28,10,30,249
10.1039/c6ta06337c,2016,AC-750,KOH,3,0.8,3068,0.98,1.67,7,30,212
10.1039/c6ra26141h,2017,A-NSC,KOH,3,1,2385,0.8,0,8.3,0.5,294
10.1039/c6ra26141h,2017,A-N-MSC2,KOH,3,1,3003,0.86,1.7,5.79,0.5,390
10.1039/c6ra26141h,2017,A-N-MSC1,KOH,3,1,2795,0.84,0.95,7.1,1,312
10.1039/c6ra26141h,2017,A-NSC,KOH,3,1,2385,0.8,0,8.3,2,234
10.1039/c6ra26141h,2017,A-N-MSC2,KOH,3,1,3003,0.86,1.7,5.79,2,333
10.1039/c6ra26141h,2017,A-N-MSC1,KOH,3,1,2795,0.84,0.95,7.1,5,270
10.1039/c6ra26141h,2017,A-NSC,KOH,3,1,2385,0.8,0,8.3,8,216
10.1039/c6ra26141h,2017,A-N-MSC2,KOH,3,1,3003,0.86,1.7,5.79,8,308
10.1039/c6ra26141h,2017,A-N-MSC1,KOH,3,1,2795,0.84,0.95,7.1,10,257
10.1039/c6ra13689c,2016,SNOPC,KOH,3,0.9,2335,1,1.1,11,0.5,315
10.1039/c6ra13689c,2016,SNOPC,KOH,3,0.9,2335,1,1.1,11,2,245
10.1039/c6ra13689c,2016,SNOPC,KOH,3,0.9,2335,1,1.1,11,10,205
10.1039/c6ra06424h,2016,PCPAC-2,KOH,2,1,679,0.83,0,0,2,289
10.1039/c6ra06424h,2016,PCPAC-2,KOH,2,1,679,0.83,0,0,8,266
10.1039/c6ra06424h,2016,PCPAC-2,KOH,2,1,679,0.83,0,0,15,243
10.1039/c6nr08987a,2017,MWCNT/NPC-S,H2SO4,3,0.9,642.5,1.53,10.969,4.735,2,198.6
10.1039/c6nr08987a,2017,MWCNT/NPC-M,H2SO4,3,0.9,884.6,1.53,10.081,3.52,2,229
10.1039/c6nr08987a,2017,MWCNT/NPC-S,H2SO4,3,0.9,642.5,1.53,10.969,4.735,3,190
10.1039/c6nr08987a,2017,MWCNT/NPC-M,H2SO4,3,0.9,884.6,1.53,10.081,3.52,3,220.8
10.1039/c6nr08987a,2017,MWCNT/NPC-S,H2SO4,3,0.9,642.5,1.53,10.969,4.735,5,182.8
10.1039/c6nr08987a,2017,MWCNT/NPC-M,H2SO4,3,0.9,884.6,1.53,10.081,3.52,5,211.4
10.1039/c6nr08987a,2017,MWCNT/NPC-S,H2SO4,3,0.9,642.5,1.53,10.969,4.735,10,172.1
10.1039/c6nr08987a,2017,MWCNT/NPC-M,H2SO4,3,0.9,884.6,1.53,10.081,3.52,10,200
10.1039/c6nr08987a,2017,mwcnt,H2SO4,3,0.9,282,1.1,0,0,2,81.5
10.1039/c6nr08987a,2017,mwcnt,H2SO4,3,0.9,282,1.1,0,0,5,74.2
10.1039/c6nr02155g,2016,MDC-700,KOH,2,1,773,2.95,0,3.6,0.5,142
10.1039/c6nr02155g,2016,CDC-900,KOH,2,1,910,2.9,0,0,0.5,160
10.1039/c6nr02155g,2016,MDC-900,KOH,2,1,1766,2.5,0,3.6,1,215
10.1039/c6nr02155g,2016,MDC-700,KOH,2,1,773,2.95,0,3.6,2,131
10.1039/c6nr02155g,2016,CDC-900,KOH,2,1,910,2.9,0,0,2,143
10.1039/c6nr02155g,2016,MDC-900,KOH,2,1,1766,2.5,0,3.6,4,195
10.1039/c6nr02155g,2016,MDC-700,KOH,2,1,773,2.95,0,3.6,6,99
10.1039/c6nr02155g,2016,CDC-900,KOH,2,1,910,2.9,0,0,6,111
10.1039/c6nr02155g,2016,MDC-900,KOH,2,1,1766,2.5,0,3.6,8,188
10.1039/c6nr02155g,2016,MDC-700,KOH,2,1,773,2.95,0,3.6,10,84
10.1039/c6nr02155g,2016,CDC-900,KOH,2,1,910,2.9,0,0,10,100
10.1039/c6nr02155g,2016,MDC-900,KOH,2,1,1766,2.5,0,3.6,20,158
10.1039/c5ta10170k,2016,BC-MS-700-14,H2SO4,2,1,1460,0.96,0,0,0.1,160
10.1039/c5ra26263a,2016,AACS-2,KOH,3,1,1379.4,1.91,0,0,0.5,139
10.1039/c5ra26263a,2016,AACS-4,KOH,3,1,1748.2,1.93,0,0,0.5,177
10.1039/c5ra26263a,2016,AACS-6,KOH,3,1,2178.2,1.97,0,0,0.5,222
10.1039/c5ra26263a,2016,AACS-2,KOH,3,1,1379.4,1.91,0,0,5,125
10.1039/c5ra26263a,2016,AACS-4,KOH,3,1,1748.2,1.93,0,0,5,156
10.1039/c5ra26263a,2016,AACS-6,KOH,3,1,2178.2,1.97,0,0,5,210
10.1039/c5ra26263a,2016,AACS-2,KOH,3,1,1379.4,1.91,0,0,20,114
10.1039/c5ra26263a,2016,AACS-4,KOH,3,1,1748.2,1.93,0,0,20,136
10.1039/c5ra26263a,2016,AACS-6,KOH,3,1,2178.2,1.97,0,0,20,195
10.1039/c5ra11179j,2015,CAC2,KOH,3,1,2548.6,0.96,0,0,1,226.1
10.1039/c5ra11179j,2015,CAC2,KOH,3,1,2548.6,0.96,0,0,3,206.5
10.1039/c5ra11179j,2015,CAC2,KOH,3,1,2548.6,0.96,0,0,8,196.4
10.1039/c5ra07807e,2015,HPC-9,TEABF4/AN,2,2.7,1007,0.85,0,7.3,0.2,38
10.1039/c5ra07807e,2015,HPC-9d,TEABF4/AN,2,2.7,1549,0.86,0,8.5,5,89
10.1039/c5ra07807e,2015,MPC-9,TEABF4/AN,2,2.7,648,0.83,0,0,5,2
10.1039/c5ra07807e,2015,HPC-9,TEABF4/AN,2,2.7,1007,0.85,0,7.3,10,1
10.1039/c5ra07807e,2015,HPC-9d,TEABF4/AN,2,2.7,1549,0.86,0,8.5,20,58
10.1039/c5ra07807e,2015,HPC-9,KOH,2,0.9,1007,0.85,0,7.3,0.2,147.2
10.1039/c5ra07807e,2015,HPC-9d,KOH,2,0.9,1549,0.86,0,8.5,1,154
10.1039/c5ra07807e,2015,MPC-9,KOH,2,0.9,648,0.83,0,0,1,162
10.1039/c5ra07807e,2015,HPC-9,KOH,2,0.9,1007,0.85,0,7.3,5,128
10.1039/c5ra07807e,2015,HPC-9,KOH,2,0.9,1007,0.85,0,7.3,10,121
10.1039/c5ra07807e,2015,HPC-9d,KOH,2,0.9,1549,0.86,0,8.5,20,12
10.1039/c5ra07807e,2015,MPC-9,KOH,2,0.9,648,0.83,0,0,20,84
10.1039/c5ra07807e,2015,HPC-9,KOH,2,0.9,1007,0.85,0,7.3,50,68
10.1039/c5ra05688h,2015,LS-600,KOH,3,0.9,943,1.15,2.06,23.32,1,232
10.1039/c5ra05688h,2015,LS-800,KOH,3,0.9,1733,1.38,1.64,18.98,1,304
10.1039/c5ra05688h,2015,LS-1000,KOH,3,0.9,1554,2.35,1.09,15.24,1,204
10.1039/c5ra05688h,2015,LS-700,KOH,3,0.9,1177,1.27,1.88,21.89,2,249
10.1039/c5ra05688h,2015,LS-900,KOH,3,0.9,1841,1.78,1.39,17.14,2,177
10.1039/c5ra05688h,2015,LS-600,KOH,3,0.9,943,1.15,2.06,23.32,3,215
10.1039/c5ra05688h,2015,LS-800,KOH,3,0.9,1733,1.38,1.64,18.98,3,282
10.1039/c5ra05688h,2015,LS-1000,KOH,3,0.9,1554,2.35,1.09,15.24,3,188
10.1039/c5ra05688h,2015,LS-700,KOH,3,0.9,1177,1.27,1.88,21.89,5,225
10.1039/c5ra05688h,2015,LS-900,KOH,3,0.9,1841,1.78,1.39,17.14,5,147
10.1039/c5ra05688h,2015,LS-600,KOH,3,0.9,943,1.15,2.06,23.32,10,189
10.1039/c5ra05688h,2015,LS-800,KOH,3,0.9,1733,1.38,1.64,18.98,10,211
10.1039/c5ra05688h,2015,LS-1000,KOH,3,0.9,1554,2.35,1.09,15.24,10,128
[...]
10.1016/j.electacta.2022.141778,2023,APC-900-8,hybrid electrolyte,2,2.4,4100.9,0.94,0,5.4,2.5,32.4
10.1016/j.electacta.2022.141778,2023,APC-800-8,organic electrolyte,2,2.7,3526,0.94,0,7.3,2.4,20.3
10.1016/j.electacta.2022.141778,2023,APC-900-8,organic electrolyte,2,2.7,4100.9,0.94,0,5.4,4.7,23.7
10.1016/j.electacta.2022.141778,2023,APC-800-8,hybrid electrolyte,2,2.4,3526,0.94,0,7.3,4.5,34.1
10.1016/j.electacta.2022.141778,2023,APC-900-8,hybrid electrolyte,2,2.4,4100.9,0.94,0,5.4,3.4,31.8
10.1016/j.electacta.2022.141778,2023,APC-800-8,organic electrolyte,2,2.7,3526,0.94,0,7.3,4.8,8.9
10.1016/j.electacta.2022.141778,2023,APC-900-8,organic electrolyte,2,2.7,4100.9,0.94,0,5.4,6.7,22.6
10.1016/j.electacta.2022.141778,2023,APC-800-8,hybrid electrolyte,2,2.4,3526,0.94,0,7.3,6,30.3
10.1016/j.electacta.2022.141778,2023,APC-900-8,hybrid electrolyte,2,2.4,4100.9,0.94,0,5.4,6,30.8
10.1016/j.electacta.2022.141778,2023,APC-800-8,organic electrolyte,2,2.7,3526,0.94,0,7.3,7.2,4.7
10.1016/j.electacta.2022.141778,2023,APC-900-8,organic electrolyte,2,2.7,4100.9,0.94,0,5.4,10,18.1
10.1016/j.electacta.2022.141778,2023,APC-800-8,hybrid electrolyte,2,2.4,3526,0.94,0,7.3,9,22.1
10.1016/j.electacta.2022.141778,2023,APC-900-8,hybrid electrolyte,2,2.4,4100.9,0.94,0,5.4,12.5,29.1
10.1016/j.electacta.2022.141778,2023,APC-800-8,organic electrolyte,2,2.7,3526,0.94,0,7.3,9.6,2.7
10.1016/j.electacta.2022.141778,2023,APC-900-8,organic electrolyte,2,2.7,4100.9,0.94,0,5.4,13.6,16.7
10.1016/j.est.2022.106219,2023,BAC-10,6M KOH,3,1,1664.19,0.92,1.08,11.24,1,442
10.1016/j.est.2022.106219,2023,CAC,6M KOH,3,1,1853.53,0.89,0.28,14,1,396
10.1016/j.est.2022.106219,2023,BAC-10,6M KOH,3,1,1664.19,0.92,1.08,11.24,20,339.2
10.1016/j.est.2022.106219,2023,CAC,6M KOH,3,1,1853.53,0.89,0.28,14,20,276.4
10.1016/j.est.2022.106219,2023,BAC-10,6M KOH,3,1,1664.19,0.92,1.08,11.24,2,409
10.1016/j.est.2022.106219,2023,CAC,6M KOH,3,1,1853.53,0.89,0.28,14,2,341
10.1016/j.est.2022.106219,2023,BAC-10,6M KOH,3,1,1664.19,0.92,1.08,11.24,5,369
10.1016/j.est.2022.106219,2023,CAC,6M KOH,3,1,1853.53,0.89,0.28,14,5,300
10.1016/j.est.2022.106219,2023,BAC-10,6M KOH,3,1,1664.19,0.92,1.08,11.24,10,346
10.1016/j.est.2022.106219,2023,CAC,6M KOH,3,1,1853.53,0.89,0.28,14,10,282
10.1016/j.fuel.2022.125658,2023,SPLRL,6M KOH,3,1,3586,0.94,2.81,13.07,0.5,373
10.1016/j.fuel.2022.125658,2023,SPLRL,6M KOH,3,1,3586,0.94,2.81,13.07,20,300
10.1016/j.fuel.2022.125658,2023,SPLRL,6M KOH,3,1,3586,0.94,2.81,13.07,1,354
10.1016/j.fuel.2022.125658,2023,SPLRL,6M KOH,3,1,3586,0.94,2.81,13.07,2,339
10.1016/j.fuel.2022.125658,2023,SPLRL,6M KOH,3,1,3586,0.94,2.81,13.07,5,325
10.1016/j.fuel.2022.125658,2023,SPLRL,6M KOH,3,1,3586,0.94,2.81,13.07,10,311
10.1115/1.40543,2023,CPVDC-1,6M KOH,3,1,1056,1.12,7.7,9.8,0.5,261
10.1115/1.40543,2023,CPVDC-2,6M KOH,3,1,1838,1.13,4.2,10.5,0.5,319
10.1115/1.40543,2023,CPVDC-3,6M KOH,3,1,3120,1.14,1.5,13.6,0.5,402
10.1115/1.40543,2023,CPVDC-4,6M KOH,3,1,1941,1.18,1.3,14.1,0.5,340
10.1115/1.40543,2023,CPVDC-1,6M KOH,3,1,1056,1.12,7.7,9.8,1,248
10.1115/1.40543,2023,CPVDC-2,6M KOH,3,1,1838,1.13,4.2,10.5,1,309
10.1115/1.40543,2023,CPVDC-3,6M KOH,3,1,3120,1.14,1.5,13.6,1,389
10.1115/1.40543,2023,CPVDC-4,6M KOH,3,1,1941,1.18,1.3,14.1,1,322
10.1115/1.40543,2023,CPVDC-1,6M KOH,3,1,1056,1.12,7.7,9.8,2,238
10.1115/1.40543,2023,CPVDC-2,6M KOH,3,1,1838,1.13,4.2,10.5,2,295
10.1115/1.40543,2023,CPVDC-3,6M KOH,3,1,3120,1.14,1.5,13.6,2,330
10.1115/1.40543,2023,CPVDC-4,6M KOH,3,1,1941,1.18,1.3,14.1,2,282
10.1115/1.40543,2023,CPVDC-1,6M KOH,3,1,1056,1.12,7.7,9.8,5,230
10.1115/1.40543,2023,CPVDC-2,6M KOH,3,1,1838,1.13,4.2,10.5,5,279
10.1115/1.40543,2023,CPVDC-3,6M KOH,3,1,3120,1.14,1.5,13.6,5,286
10.1115/1.40543,2023,CPVDC-4,6M KOH,3,1,1941,1.18,1.3,14.1,5,241
10.1115/1.40543,2023,CPVDC-1,6M KOH,3,1,1056,1.12,7.7,9.8,10,212
10.1115/1.40543,2023,CPVDC-2,6M KOH,3,1,1838,1.13,4.2,10.5,10,260
10.1115/1.40543,2023,CPVDC-3,6M KOH,3,1,3120,1.14,1.5,13.6,10,260
10.1115/1.40543,2023,CPVDC-4,6M KOH,3,1,1941,1.18,1.3,14.1,10,181
10.1115/1.40543,2023,CPVDC-1,6M KOH,3,1,1056,1.12,7.7,9.8,20,201
10.1115/1.40543,2023,CPVDC-2,6M KOH,3,1,1838,1.13,4.2,10.5,20,242
10.1115/1.40543,2023,CPVDC-3,6M KOH,3,1,3120,1.14,1.5,13.6,20,220
10.1115/1.40543,2023,CPVDC-4,6M KOH,3,1,1941,1.18,1.3,14.1,20,130
10.1115/1.40543,2023,CPVDC-3,6M KOH,2,1,3120,1.14,1.5,13.6,1,320
10.1115/1.40543,2023,CPVDC-3,6M KOH,2,1,3120,1.14,1.5,13.6,2,227
10.1115/1.40543,2023,CPVDC-3,6M KOH,2,1,3120,1.14,1.5,13.6,5,240
10.1115/1.40543,2023,CPVDC-3,6M KOH,2,1,3120,1.14,1.5,13.6,10,235
10.1115/1.40543,2023,CPVDC-3,6M KOH,2,1,3120,1.14,1.5,13.6,20,220
10.1115/1.40543,2023,CPVDC-3,1M Na2SO4,2,1.6,3120,1.14,1.5,13.6,0.5,225
10.1115/1.40543,2023,CPVDC-3,1M Na2SO4,2,1.6,3120,1.14,1.5,13.6,1,198
10.1115/1.40543,2023,CPVDC-3,1M Na2SO4,2,1.6,3120,1.14,1.5,13.6,2,179
10.1115/1.40543,2023,CPVDC-3,1M Na2SO4,2,1.6,3120,1.14,1.5,13.6,5,154
10.1115/1.40543,2023,CPVDC-3,1M Na2SO4,2,1.6,3120,1.14,1.5,13.6,10,129
10.1021/acsomega.2c07143,2023,CNTs,1M Na2SO4,2,2,478,0.046,0,13.69,0.5,55
10.1021/acsomega.2c07143,2023,CNTs,1M NaHSO4,2,1.5,478,0.046,0,13.69,0.5,40
10.1021/acsomega.2c07143,2023,CNTs,1M NaOH,2,1,478,0.046,0,13.69,0.5,27
10.1021/acsomega.2c07143,2023,CNTs,1M Li2SO4,2,2,478,0.046,0,13.69,0.5,122
10.1021/acsomega.2c07143,2023,CNTs,1M Na2SO4,2,2,478,0.046,0,13.69,1,54
10.1021/acsomega.2c07143,2023,CNTs,1M NaHSO4,2,1.5,478,0.046,0,13.69,1,40
10.1021/acsomega.2c07143,2023,CNTs,1M NaOH,2,1,478,0.046,0,13.69,1,26
10.1021/acsomega.2c07143,2023,CNTs,1M Li2SO4,2,2,478,0.046,0,13.69,1,118
10.1021/acsomega.2c07143,2023,CNTs,1M Na2SO4,2,2,478,0.046,0,13.69,1.5,53
10.1021/acsomega.2c07143,2023,CNTs,1M NaHSO4,2,1.5,478,0.046,0,13.69,1.5,38
10.1021/acsomega.2c07143,2023,CNTs,1M NaOH,2,1,478,0.046,0,13.69,1.5,26
10.1021/acsomega.2c07143,2023,CNTs,1M Li2SO4,2,2,478,0.046,0,13.69,1.5,116
10.1021/acsomega.2c07143,2023,CNTs,1M Na2SO4,2,2,478,0.046,0,13.69,2.5,50
10.1021/acsomega.2c07143,2023,CNTs,1M NaHSO4,2,1.5,478,0.046,0,13.69,2.5,36
10.1021/acsomega.2c07143,2023,CNTs,1M NaOH,2,1,478,0.046,0,13.69,2.5,25
10.1021/acsomega.2c07143,2023,CNTs,1M Li2SO4,2,2,478,0.046,0,13.69,2.5,108
10.3390/ijerph20021355,2023,NHC1,6M KOH,3,1,15.13,1.286,3.55,14.69,1,65.2
10.3390/ijerph20021355,2023,NHC2,6M KOH,3,1,14.38,1.32,3.63,14.18,1,82.8
10.3390/ijerph20021355,2023,NHC3,6M KOH,3,1,16.53,1.279,3.78,14.16,1,63.2
10.3390/ijerph20021355,2023,NAHC1,6M KOH,3,1,1175.46,1.472,2.93,5.39,1,210.5
10.3390/ijerph20021355,2023,NAHC1,6M KOH,3,1,1175.46,1.472,2.93,5.39,10,151
10.1016/j.jcis.2022.10.106,2023,PC-K1,1M H2SO4,3,1,988,0.98,0,4.61,0.5,201
10.1016/j.jcis.2022.10.106,2023,PC-K4,1M H2SO4,3,1,1210,1,0,4.38,0.5,247
10.1016/j.jcis.2022.10.106,2023,PC-K1,6M KOH,3,1,988,0.98,0,4.61,0.5,239
10.1016/j.jcis.2022.10.106,2023,PC-K4,6M KOH,3,1,1210,1,0,4.38,0.5,294
10.1016/j.jcis.2022.10.106,2023,PC-K1,1M H2SO4,3,1,988,0.98,0,4.61,1,183
10.1016/j.jcis.2022.10.106,2023,PC-K4,1M H2SO4,3,1,1210,1,0,4.38,1,221
10.1016/j.jcis.2022.10.106,2023,PC-K1,6M KOH,3,1,988,0.98,0,4.61,1,188
10.1016/j.jcis.2022.10.106,2023,PC-K4,6M KOH,3,1,1210,1,0,4.38,1,239
10.1016/j.jcis.2022.10.106,2023,PC-K1,1M H2SO4,3,1,988,0.98,0,4.61,2,170
10.1016/j.jcis.2022.10.106,2023,PC-K4,1M H2SO4,3,1,1210,1,0,4.38,2,204
10.1016/j.jcis.2022.10.106,2023,PC-K1,6M KOH,3,1,988,0.98,0,4.61,2,170
10.1016/j.jcis.2022.10.106,2023,PC-K4,6M KOH,3,1,1210,1,0,4.38,2,219
10.1016/j.jcis.2022.10.106,2023,PC-K1,1M H2SO4,3,1,988,0.98,0,4.61,5,153
10.1016/j.jcis.2022.10.106,2023,PC-K4,1M H2SO4,3,1,1210,1,0,4.38,5,184
10.1016/j.jcis.2022.10.106,2023,PC-K1,6M KOH,3,1,988,0.98,0,4.61,5,154
10.1016/j.jcis.2022.10.106,2023,PC-K4,6M KOH,3,1,1210,1,0,4.38,5,199
10.1016/j.jcis.2022.10.106,2023,PC-K1,1M H2SO4,3,1,988,0.98,0,4.61,10,140
10.1016/j.jcis.2022.10.106,2023,PC-K4,1M H2SO4,3,1,1210,1,0,4.38,10,109
10.1016/j.jcis.2022.10.106,2023,PC-K1,6M KOH,3,1,988,0.98,0,4.61,10,142
10.1016/j.jcis.2022.10.106,2023,PC-K4,6M KOH,3,1,1210,1,0,4.38,10,183
10.1016/j.jcis.2022.10.106,2023,PC-K1,1M H2SO4,3,1,988,0.98,0,4.61,15,131
10.1016/j.jcis.2022.10.106,2023,PC-K4,1M H2SO4,3,1,1210,1,0,4.38,15,101
10.1016/j.jcis.2022.10.106,2023,PC-K1,6M KOH,3,1,988,0.98,0,4.61,15,134
10.1016/j.jcis.2022.10.106,2023,PC-K4,6M KOH,3,1,1210,1,0,4.38,15,176
10.1016/j.jcis.2022.10.106,2023,PC-K1,1M H2SO4,3,1,988,0.98,0,4.61,20,124
10.1016/j.jcis.2022.10.106,2023,PC-K4,1M H2SO4,3,1,1210,1,0,4.38,20,95
10.1016/j.jcis.2022.10.106,2023,PC-K1,6M KOH,3,1,988,0.98,0,4.61,20,130
10.1016/j.jcis.2022.10.106,2023,PC-K4,6M KOH,3,1,1210,1,0,4.38,20,169
10.1016/j.jcis.2022.10.106,2023,PC-K4,1M H2SO4,2,1.2,1210,1,0,4.38,1,50
10.1016/j.jcis.2022.10.106,2023,PC-K4,6M KOH,2,1.2,1210,1,0,4.38,1,47